aX,aY,aZ,gX,gY,gZ
0.977,-0.884,-0.645,-88.074,30.457,81.848
0.957,-0.873,-0.598,-90.210,22.278,89.722
0.940,-0.829,-0.524,-91.248,16.846,101.135
0.919,-0.777,-0.457,-86.670,16.724,112.671
0.897,-0.739,-0.432,-77.271,20.203,125.366
0.922,-0.704,-0.462,-69.763,21.912,139.160
0.942,-0.662,-0.479,-66.223,16.541,149.414
0.918,-0.602,-0.513,-63.843,7.385,155.334
0.912,-0.562,-0.489,-65.735,-0.732,158.569
0.846,-0.505,-0.484,-70.190,-7.568,161.133
0.766,-0.447,-0.453,-74.646,-11.719,166.077
0.700,-0.399,-0.433,-79.712,-11.292,172.241
0.633,-0.338,-0.418,-86.365,-5.737,180.786
0.574,-0.274,-0.407,-92.834,2.136,190.491
0.522,-0.200,-0.404,-96.558,9.277,200.806
0.474,-0.102,-0.411,-98.999,10.925,210.632
0.440,-0.003,-0.414,-102.112,5.249,218.140
0.371,0.087,-0.435,-106.201,-8.301,219.360
0.258,0.154,-0.464,-109.558,-24.658,216.125
0.134,0.209,-0.501,-114.258,-37.170,211.487
0.004,0.277,-0.539,-122.070,-43.091,207.520
-0.113,0.371,-0.577,-133.728,-45.105,203.308
-0.225,0.482,-0.594,-147.217,-46.021,198.181
-0.332,0.634,-0.585,-162.781,-45.227,191.833
-0.424,0.780,-0.570,-178.650,-42.786,184.509
-0.486,0.902,-0.579,-191.101,-39.429,174.988
-0.550,1.077,-0.611,-199.463,-32.959,163.635
-0.598,1.308,-0.661,-208.435,-24.963,152.466
-0.545,1.514,-0.703,-214.600,-14.160,148.132
-0.423,1.808,-0.757,-218.933,-0.122,156.189
-0.201,2.187,-0.768,-226.318,6.775,174.866
0.207,2.581,-0.603,-232.849,-4.089,189.453
0.871,2.864,-0.240,-232.727,-28.198,191.162
1.481,2.622,0.295,-218.872,-52.734,160.706
1.495,2.083,0.665,-179.443,-65.430,78.064
0.983,1.485,0.709,-116.150,-51.025,-18.555
0.379,0.965,0.418,-40.710,-16.296,-84.351
0.001,0.531,-0.068,24.536,16.296,-91.431
-0.087,0.255,-0.596,66.833,35.156,-54.749
-0.039,0.206,-1.022,79.468,36.377,-4.700
0.177,0.315,-1.274,64.514,24.231,35.950
0.428,0.521,-1.338,32.288,6.592,54.993
0.584,0.770,-1.247,-1.404,-5.127,53.162
0.722,0.939,-1.046,-25.940,-16.724,35.217
0.766,1.026,-0.843,-34.180,-25.391,18.372
0.756,1.046,-0.667,-27.649,-31.128,5.981
0.729,0.967,-0.544,-10.315,-36.377,-3.052
0.670,0.815,-0.500,10.437,-38.208,-9.705
0.579,0.646,-0.538,28.137,-34.302,-14.282
0.506,0.532,-0.635,36.682,-24.475,-14.404
0.502,0.483,-0.732,32.043,-11.658,-8.911
0.535,0.507,-0.803,19.043,0.305,-3.357
0.581,0.584,-0.830,5.188,10.803,-0.488
0.636,0.663,-0.808,-5.188,17.090,0.488
0.685,0.738,-0.749,-10.742,16.052,-0.427
0.697,0.801,-0.683,-9.766,8.728,-3.174
0.683,0.842,-0.632,-2.380,-0.427,-6.653
0.656,0.849,-0.593,7.751,-6.714,-11.597
0.608,0.852,-0.567,16.296,-8.850,-17.395
0.592,0.834,-0.533,20.386,-8.789,-22.827
0.610,0.812,-0.486,20.752,-7.568,-26.550
0.610,0.854,-0.447,21.179,-4.517,-28.503
0.618,0.930,-0.428,24.231,-0.305,-29.724
0.629,1.011,-0.426,30.151,5.432,-32.349
0.628,1.091,-0.440,39.307,12.390,-37.170
0.626,1.185,-0.475,48.584,19.470,-44.800
0.606,1.276,-0.514,56.091,24.353,-55.908
0.576,1.351,-0.525,63.171,25.940,-70.129
0.562,1.378,-0.475,69.458,22.278,-86.182
0.558,1.372,-0.378,77.271,14.282,-102.112
0.489,1.390,-0.309,88.440,7.751,-114.441
0.425,1.391,-0.261,101.807,7.935,-123.535
0.392,1.392,-0.260,115.234,13.367,-129.700
0.369,1.393,-0.308,127.930,22.278,-133.484
0.339,1.372,-0.382,139.099,33.020,-137.146
0.279,1.371,-0.470,145.142,43.884,-142.273
0.225,1.370,-0.507,144.043,53.284,-149.963
0.172,1.349,-0.485,137.268,58.594,-160.950
0.120,1.312,-0.426,128.967,58.716,-174.683
0.107,1.243,-0.352,122.803,55.237,-189.270
0.118,1.122,-0.269,121.033,50.598,-200.195
0.155,0.976,-0.264,124.939,52.612,-208.008
0.239,0.810,-0.310,125.732,64.453,-213.745
0.298,0.721,-0.388,117.371,81.848,-219.788
0.330,0.651,-0.436,99.792,95.520,-229.431
0.339,0.572,-0.457,78.918,102.966,-241.089
0.322,0.505,-0.457,58.289,108.276,-252.808
0.292,0.426,-0.448,39.124,114.197,-263.306
0.259,0.353,-0.434,22.278,119.263,-274.170
0.227,0.289,-0.408,9.460,122.070,-283.752
0.203,0.215,-0.374,1.770,121.399,-293.457
0.179,0.147,-0.351,-2.808,117.920,-302.368
0.179,0.071,-0.318,-7.202,112.000,-309.814
0.182,-0.021,-0.264,-10.376,104.004,-315.552
0.167,-0.096,-0.233,-10.925,99.182,-318.115
0.161,-0.165,-0.224,-10.681,99.365,-321.350
0.117,-0.219,-0.219,-12.512,100.464,-326.050
0.066,-0.291,-0.217,-15.381,101.563,-328.857
0.034,-0.376,-0.216,-18.372,103.455,-329.895
0.009,-0.469,-0.224,-22.034,104.370,-328.979
-0.013,-0.581,-0.238,-26.001,102.722,-325.928
-0.025,-0.666,-0.262,-29.785,99.609,-321.838
0.007,-0.784,-0.274,-33.264,93.262,-316.406
-0.011,-0.920,-0.279,-33.569,83.984,-316.223
-0.110,-1.045,-0.295,-32.043,76.111,-317.139
-0.235,-1.245,-0.321,-28.381,72.571,-310.303
-0.417,-1.467,-0.380,-23.193,69.397,-300.964
-0.674,-1.713,-0.518,-12.695,63.660,-297.668
-1.143,-1.974,-0.736,9.399,57.678,-309.143
-1.922,-2.063,-1.000,51.819,55.603,-346.680
-2.635,-1.912,-1.289,117.188,44.373,-400.085
-2.884,-2.005,-1.766,178.467,4.211,-403.503
-2.480,-2.570,-2.386,190.796,-69.824,-298.706
-1.815,-2.810,-2.816,107.483,-160.767,-103.516
-1.167,-2.173,-2.430,-61.401,-234.436,96.863
-0.512,-1.435,-1.806,-233.215,-230.042,212.280
0.095,-0.664,-1.016,-351.318,-174.500,245.850
0.752,-0.349,-0.456,-358.948,-116.638,226.379
1.249,-0.337,-0.303,-285.339,-74.890,177.795

1.056,-1.013,-0.613,-86.792,-51.208,13.184
0.825,-1.095,-0.561,-76.965,-45.349,-2.502
0.632,-1.111,-0.448,-68.420,-38.208,-7.202
0.483,-1.136,-0.383,-49.988,-32.349,-11.963
0.345,-1.162,-0.399,-28.198,-26.367,-17.883
0.219,-1.179,-0.431,-12.939,-16.602,-24.658
0.125,-1.180,-0.452,-5.432,0.732,-29.297
0.096,-1.148,-0.470,-3.052,23.804,-28.503
0.120,-1.095,-0.482,-2.625,45.227,-22.095
0.188,-1.023,-0.487,-1.770,57.983,-13.245
0.256,-0.962,-0.479,0.427,60.364,-5.127
0.312,-0.902,-0.478,4.089,54.504,1.465
0.376,-0.854,-0.491,7.202,44.983,7.385
0.422,-0.809,-0.498,7.263,35.156,10.254
0.449,-0.778,-0.489,5.676,27.100,9.399
0.455,-0.751,-0.475,4.517,20.386,7.324
0.449,-0.743,-0.465,4.639,14.343,5.859
0.432,-0.747,-0.445,4.700,8.423,3.906
0.400,-0.756,-0.417,4.761,3.540,1.343
0.366,-0.759,-0.400,4.272,0.793,0.854
0.353,-0.762,-0.389,2.319,0.488,1.587
0.354,-0.762,-0.382,-1.221,1.953,2.991
0.363,-0.763,-0.384,-4.089,3.723,4.456
0.365,-0.764,-0.396,-5.920,4.395,5.798
0.369,-0.767,-0.411,-7.446,3.662,9.216
0.379,-0.763,-0.422,-8.362,1.099,11.719
0.393,-0.767,-0.426,-8.362,-3.296,12.207
0.403,-0.779,-0.421,-7.812,-9.033,12.207
0.407,-0.789,-0.411,-6.958,-15.503,13.000
0.416,-0.792,-0.403,-5.920,-21.423,14.160
0.432,-0.784,-0.406,-5.432,-25.269,15.137
0.438,-0.769,-0.408,-5.310,-25.146,15.625
0.443,-0.766,-0.419,-4.944,-20.752,14.587
0.442,-0.769,-0.442,-4.517,-13.550,12.695
0.438,-0.785,-0.461,-3.845,-6.226,10.254
0.427,-0.806,-0.481,-3.479,-0.427,8.423
0.420,-0.826,-0.485,-3.113,3.113,7.507
0.419,-0.831,-0.462,-2.319,3.418,8.118
0.441,-0.805,-0.509,0.427,-0.916,9.094
0.443,-0.834,-0.479,0.305,-0.793,7.690
0.442,-0.816,-0.470,1.221,-2.258,7.935
0.459,-0.809,-0.459,3.235,-3.113,9.705
0.479,-0.804,-0.460,5.859,-3.113,10.193
0.491,-0.803,-0.461,7.751,-2.380,10.010
0.499,-0.806,-0.464,8.545,-1.587,9.033
0.499,-0.803,-0.461,8.118,-0.732,7.690
0.502,-0.799,-0.451,6.836,0.549,6.348
0.502,-0.794,-0.436,5.310,1.587,5.188
0.506,-0.797,-0.428,4.578,2.686,3.784
0.501,-0.797,-0.429,3.967,3.418,1.770
0.492,-0.799,-0.438,3.174,4.028,-0.610
0.479,-0.803,-0.452,2.319,4.883,-2.686
0.467,-0.807,-0.460,1.343,5.249,-3.540
0.456,-0.811,-0.461,0.854,5.127,-3.784
0.449,-0.811,-0.460,0.732,3.723,-3.479
0.441,-0.805,-0.451,1.465,1.221,-2.380
0.449,-0.810,-0.440,3.479,-1.709,-1.465
0.454,-0.807,-0.438,5.493,-4.883,-1.099
0.456,-0.807,-0.435,6.653,-7.751,-0.366
0.462,-0.802,-0.431,7.507,-9.644,0.671
0.469,-0.797,-0.434,8.423,-10.559,1.221
0.472,-0.791,-0.434,8.667,-10.864,1.038
0.469,-0.785,-0.437,8.911,-10.498,0.549
0.466,-0.781,-0.449,9.338,-9.766,-0.122
0.460,-0.784,-0.455,9.521,-9.338,-1.343
0.456,-0.789,-0.460,9.888,-9.155,-2.136
0.455,-0.796,-0.465,10.620,-9.338,-1.953
0.452,-0.796,-0.471,11.475,-10.010,-1.648
0.457,-0.797,-0.481,12.329,-10.498,-1.587
0.459,-0.796,-0.492,12.817,-10.620,-1.648
0.463,-0.797,-0.501,13.000,-10.071,-1.892
0.464,-0.800,-0.511,12.817,-9.583,-2.075
0.463,-0.802,-0.517,12.512,-9.338,-2.441
0.452,-0.802,-0.512,12.146,-9.277,-3.174
0.446,-0.802,-0.506,12.512,-9.888,-3.479
0.447,-0.804,-0.506,13.062,-10.681,-3.113
0.448,-0.804,-0.503,13.245,-11.292,-2.686
0.445,-0.800,-0.501,13.184,-11.536,-2.991
0.448,-0.800,-0.508,13.123,-10.925,-3.113
0.444,-0.797,-0.518,12.085,-9.583,-3.662
0.443,-0.798,-0.526,10.681,-7.568,-4.456
0.435,-0.801,-0.530,8.484,-5.127,-5.371
0.426,-0.806,-0.524,6.470,-3.418,-6.104
0.424,-0.810,-0.522,5.737,-2.869,-6.104
0.425,-0.810,-0.521,5.310,-3.540,-5.615
0.427,-0.803,-0.512,4.700,-4.883,-5.249
0.427,-0.794,-0.499,4.517,-6.165,-5.066
0.427,-0.789,-0.487,4.761,-7.446,-5.066
0.424,-0.786,-0.485,5.188,-8.240,-5.188
0.417,-0.783,-0.485,5.493,-8.545,-5.737
0.416,-0.784,-0.488,5.798,-8.118,-5.554
0.412,-0.785,-0.489,5.981,-7.568,-5.310
0.412,-0.789,-0.496,6.470,-6.714,-5.188
0.414,-0.793,-0.504,6.531,-6.348,-5.188
0.411,-0.797,-0.506,5.615,-6.531,-5.676
0.405,-0.797,-0.505,4.272,-7.080,-5.859
0.404,-0.797,-0.499,3.235,-7.690,-5.554
0.403,-0.796,-0.496,2.502,-8.179,-4.944
0.403,-0.799,-0.495,2.625,-7.996,-4.395
0.405,-0.799,-0.496,2.563,-7.507,-4.028
0.411,-0.800,-0.497,2.258,-6.897,-3.296
0.418,-0.799,-0.495,1.770,-6.348,-2.563
0.420,-0.798,-0.490,1.526,-6.470,-2.319
0.421,-0.794,-0.486,1.648,-6.836,-2.197
0.424,-0.794,-0.482,1.770,-7.324,-2.075
0.427,-0.796,-0.479,2.075,-7.568,-2.136
0.427,-0.796,-0.478,2.380,-7.812,-1.892
0.426,-0.795,-0.478,2.441,-7.935,-1.343
0.427,-0.797,-0.485,2.747,-7.812,-0.732
0.423,-0.798,-0.493,2.625,-7.263,-0.671
0.418,-0.803,-0.498,2.075,-6.409,-0.732
0.416,-0.805,-0.500,1.648,-5.432,-0.732
0.420,-0.803,-0.503,0.793,-4.395,-0.244
0.423,-0.800,-0.500,-0.366,-3.418,0.366
0.434,-0.800,-0.494,-1.160,-2.869,1.160
0.442,-0.794,-0.489,-1.587,-2.869,1.892
0.450,-0.794,-0.487,-1.709,-3.418,2.319
0.456,-0.791,-0.484,-1.648,-3.845,2.197
0.457,-0.792,-0.479,-1.648,-4.211,1.770

0.154,-1.659,-0.792,-17.273,9.949,109.741
0.119,-1.689,-0.802,-21.790,23.315,122.498
0.097,-1.727,-0.789,-23.804,35.767,133.484
0.066,-1.762,-0.758,-23.682,43.091,144.958
0.021,-1.821,-0.732,-21.545,44.617,159.729
-0.018,-1.857,-0.717,-17.456,40.039,175.171
-0.078,-1.907,-0.693,-10.559,33.325,194.885
-0.144,-1.951,-0.689,-0.488,23.560,214.355
-0.239,-2.036,-0.709,13.000,11.658,231.689
-0.305,-2.131,-0.731,28.137,-2.136,247.803
-0.361,-2.194,-0.764,41.992,-15.991,264.893
-0.439,-2.231,-0.825,53.162,-28.564,285.278
-0.504,-2.227,-0.901,61.157,-38.025,309.998
-0.508,-2.189,-0.993,63.843,-48.035,338.562
-0.506,-2.120,-1.080,58.960,-59.631,365.112
-0.508,-1.981,-1.201,43.640,-72.876,385.315
-0.528,-1.806,-1.294,12.024,-90.576,396.851
-0.720,-1.490,-1.288,-34.729,-117.371,400.085
-1.075,-0.914,-1.260,-93.872,-146.912,405.029
-1.458,-0.140,-1.160,-160.278,-171.875,417.725
-1.878,0.786,-1.015,-227.234,-182.312,429.932
-2.473,1.901,-0.828,-283.081,-175.232,430.481
-3.078,3.054,-0.691,-324.158,-148.132,420.898
-3.437,3.999,-0.503,-352.478,-103.088,412.048
-3.318,4.000,-0.381,-363.037,-54.138,416.504
-2.292,4.000,-0.347,-346.924,-15.503,446.228
0.161,4.000,-0.251,-297.546,-4.211,481.018
4.000,4.000,-0.193,-276.550,-21.179,533.325
4.000,4.000,1.505,-209.229,-92.285,538.025
4.000,4.000,2.109,84.778,-283.386,189.026
0.995,2.556,1.262,341.125,-443.542,-222.595
-1.186,0.818,-0.190,468.262,-358.032,-337.463
-1.934,-0.401,-1.163,397.339,-160.217,-245.728
-1.157,-1.144,-1.805,229.187,45.349,-119.019
-0.400,-1.160,-1.960,24.170,183.167,-39.124
0.104,-0.654,-1.693,-157.532,242.920,-32.410
0.396,-0.097,-1.331,-272.156,269.897,-55.359
0.570,0.261,-0.996,-322.083,277.710,-73.547
0.598,0.492,-0.685,-317.200,256.714,-78.247
0.588,0.693,-0.403,-265.808,204.041,-70.190
0.658,0.823,-0.155,-182.861,124.512,-44.983
0.828,0.922,-0.031,-78.796,27.954,-11.414
0.992,1.036,-0.106,30.579,-68.970,20.142
1.106,1.208,-0.348,124.023,-144.714,47.302
1.237,1.354,-0.588,177.490,-182.312,68.176
1.380,1.447,-0.715,181.824,-179.871,65.918
1.339,1.489,-0.717,147.766,-145.935,30.273
1.177,1.538,-0.664,99.976,-88.074,-37.476
0.930,1.564,-0.581,51.880,-22.827,-110.779
0.714,1.560,-0.491,16.785,28.992,-166.626
0.537,1.578,-0.402,-0.549,53.345,-200.623
0.432,1.487,-0.283,1.160,48.218,-214.050
0.419,1.289,-0.177,19.470,23.254,-209.351
0.459,1.029,-0.157,49.744,-6.165,-195.984
0.515,0.723,-0.206,83.374,-27.893,-186.157
0.539,0.422,-0.309,107.788,-33.569,-180.237
0.539,0.209,-0.465,116.028,-24.719,-178.101
0.507,0.132,-0.633,106.628,-7.507,-183.044
0.498,0.144,-0.746,81.909,14.160,-191.895
0.497,0.164,-0.793,49.377,35.339,-199.890
0.458,0.140,-0.786,19.348,49.133,-205.811
0.453,0.047,-0.710,-3.906,50.781,-202.942
0.503,-0.056,-0.562,-18.616,39.185,-190.674
0.595,-0.178,-0.408,-20.691,19.836,-174.866
0.710,-0.322,-0.286,-10.559,-1.892,-161.255
0.784,-0.445,-0.233,6.775,-20.996,-150.024
0.799,-0.596,-0.225,24.719,-34.302,-140.930
0.805,-0.758,-0.260,36.255,-39.124,-130.615
0.781,-0.883,-0.308,37.598,-36.377,-119.202
0.756,-0.956,-0.338,32.227,-30.823,-109.192
0.761,-1.016,-0.348,24.536,-26.733,-99.548
0.788,-1.084,-0.333,18.066,-26.611,-89.111
0.849,-1.144,-0.298,13.000,-29.968,-78.186
0.906,-1.165,-0.246,8.484,-37.415,-68.909
0.933,-1.176,-0.176,6.470,-45.776,-62.988
0.922,-1.180,-0.127,6.775,-48.462,-59.082
0.903,-1.174,-0.107,6.653,-45.776,-54.749
0.874,-1.164,-0.093,5.005,-41.992,-49.377
0.835,-1.134,-0.082,2.625,-38.635,-42.175
0.811,-1.095,-0.078,-0.061,-33.752,-33.386
0.795,-1.042,-0.066,-3.540,-28.015,-23.437
0.803,-0.960,-0.055,-6.714,-23.743,-14.404
0.800,-0.852,-0.048,-7.690,-22.522,-7.629
0.802,-0.767,-0.039,-5.859,-22.888,-2.380
0.823,-0.684,-0.040,-3.174,-23.804,3.113
0.848,-0.597,-0.043,-0.305,-24.170,6.409
0.855,-0.527,-0.050,2.014,-22.827,7.690
0.871,-0.475,-0.065,3.113,-18.982,8.972
0.887,-0.428,-0.081,3.296,-13.489,9.644
0.903,-0.385,-0.103,2.808,-7.812,9.338
0.917,-0.346,-0.122,1.465,-3.662,8.118
0.925,-0.308,-0.138,-0.671,-1.648,5.920
0.928,-0.278,-0.144,-2.930,-0.549,4.822
0.944,-0.265,-0.144,-4.822,-0.122,4.883
0.958,-0.261,-0.144,-5.493,-0.122,5.188
0.964,-0.264,-0.146,-5.005,-0.305,4.639
0.964,-0.274,-0.152,-3.540,-0.793,3.723
0.958,-0.292,-0.162,-1.343,-2.319,3.113
0.949,-0.317,-0.166,0.488,-4.700,2.930
0.943,-0.342,-0.171,1.343,-6.653,2.441
0.934,-0.362,-0.175,1.343,-7.446,1.953
0.932,-0.375,-0.178,0.366,-7.812,1.892
0.927,-0.383,-0.166,-1.282,-8.606,1.709
0.923,-0.393,-0.147,-2.441,-9.521,1.465
0.912,-0.405,-0.133,-3.479,-9.460,1.526
0.896,-0.417,-0.126,-3.784,-8.911,1.465
0.883,-0.429,-0.125,-4.333,-8.118,1.892
0.878,-0.433,-0.123,-5.005,-6.775,2.991
0.880,-0.435,-0.120,-5.615,-5.249,4.211
0.889,-0.427,-0.116,-6.470,-3.662,5.005
0.898,-0.412,-0.108,-6.958,-2.563,5.432
0.907,-0.403,-0.102,-6.104,-1.892,5.859
0.914,-0.395,-0.099,-4.578,-1.953,6.348
0.914,-0.390,-0.097,-2.991,-2.136,6.958
0.913,-0.381,-0.103,-1.465,-1.953,7.812
0.918,-0.371,-0.119,-0.549,-0.793,8.911
0.924,-0.363,-0.139,-0.305,0.732,9.338
0.933,-0.353,-0.152,-1.038,1.831,9.460
0.936,-0.344,-0.159,-2.197,2.319,8.972

0.709,-1.392,-0.491,-69.092,44.312,86.182
0.702,-1.418,-0.506,-75.073,44.556,91.309
0.708,-1.443,-0.520,-80.261,46.509,97.290
0.705,-1.463,-0.575,-85.327,51.025,102.356
0.712,-1.491,-0.626,-92.651,54.810,106.873
0.720,-1.525,-0.683,-102.356,57.434,112.122
0.724,-1.565,-0.708,-114.075,56.580,116.577
0.690,-1.618,-0.728,-125.061,53.406,120.300
0.597,-1.692,-0.770,-132.996,52.673,124.939
0.452,-1.751,-0.826,-139.771,56.458,132.507
0.294,-1.760,-0.876,-146.606,63.232,146.973
0.177,-1.712,-0.866,-152.893,69.519,172.058
0.114,-1.616,-0.823,-155.090,70.679,204.712
0.076,-1.473,-0.768,-151.917,68.359,238.159
-0.034,-1.294,-0.719,-145.386,68.359,269.043
-0.026,-1.134,-0.757,-141.724,70.374,300.537
-0.011,-0.958,-0.745,-142.578,56.335,329.956
0.016,-0.758,-0.765,-141.846,21.729,351.196
-0.078,-0.635,-0.868,-143.127,-17.212,354.431
-0.408,-0.395,-1.056,-151.245,-31.311,336.792
-0.768,-0.036,-1.205,-185.974,-26.550,316.467
-1.169,0.481,-1.241,-243.347,-13.611,302.368
-1.564,1.190,-1.202,-298.340,6.592,291.077
-1.983,1.979,-1.174,-340.332,35.400,278.992
-2.346,2.798,-1.137,-359.070,73.608,269.775
-2.464,3.587,-1.148,-348.877,124.634,269.775
-2.122,4.000,-1.186,-307.861,183.228,289.612
-1.195,4.000,-1.213,-253.418,226.868,338.318
0.754,4.000,-1.048,-191.406,226.013,414.978
3.955,4.000,-0.284,-156.677,139.832,524.536
4.000,4.000,1.724,-17.212,-68.787,482.239
4.000,2.368,1.930,176.758,-281.982,104.614
0.758,1.548,0.602,275.574,-342.896,-243.225
-1.679,0.310,-0.809,288.818,-262.817,-330.750
-2.220,-0.584,-1.632,217.590,-72.388,-234.558
-1.125,-1.167,-1.795,75.378,126.831,-58.594
-0.101,-0.904,-1.713,-72.998,222.900,52.063
0.466,-0.182,-1.464,-174.438,232.178,58.716
0.685,0.585,-1.220,-218.994,196.350,39.185
0.898,1.092,-0.846,-221.130,141.357,39.307
1.063,1.229,-0.509,-175.049,75.562,42.114
1.105,1.177,-0.281,-97.168,7.019,31.006
0.964,1.032,-0.251,-19.043,-48.584,14.832
0.800,0.880,-0.285,38.879,-80.078,0.366
0.734,0.677,-0.429,71.228,-76.538,-9.583
0.668,0.560,-0.580,74.585,-49.988,-19.287
0.664,0.529,-0.695,55.786,-13.123,-23.254
0.679,0.547,-0.756,28.381,18.372,-23.926
0.765,0.557,-0.751,2.197,38.330,-24.719
0.816,0.572,-0.696,-17.944,41.809,-30.090
0.807,0.611,-0.633,-28.503,36.865,-39.917
0.776,0.689,-0.587,-30.334,33.142,-49.316
0.754,0.778,-0.544,-26.367,31.799,-54.382
0.802,0.863,-0.492,-16.541,30.457,-53.955
0.850,0.973,-0.452,-1.526,26.367,-51.208
0.878,1.055,-0.418,19.409,18.616,-50.232
0.890,1.121,-0.416,41.260,10.864,-52.307
0.902,1.197,-0.440,59.143,4.639,-59.814
0.906,1.247,-0.510,70.679,0.122,-74.951
0.857,1.258,-0.610,77.454,-1.038,-95.703
0.794,1.236,-0.666,80.444,-0.977,-117.798
0.715,1.214,-0.679,79.407,-2.625,-136.719
0.664,1.133,-0.638,75.989,-4.456,-151.672
0.630,1.033,-0.578,73.547,-4.395,-161.865
0.557,0.956,-0.541,71.716,-1.648,-169.250
0.486,0.876,-0.525,69.458,4.822,-175.598
0.444,0.781,-0.516,64.941,13.977,-180.298
0.406,0.765,-0.530,57.617,23.743,-183.350
0.419,0.767,-0.538,47.180,30.762,-187.927
0.418,0.752,-0.548,36.316,33.752,-194.824
0.428,0.728,-0.586,27.405,37.109,-204.163
0.412,0.646,-0.586,19.287,39.368,-213.806
0.429,0.539,-0.563,13.245,40.771,-219.360
0.452,0.471,-0.516,9.277,38.208,-220.032
0.497,0.375,-0.458,9.827,32.043,-218.750
0.534,0.290,-0.422,14.648,22.888,-217.285
0.540,0.252,-0.422,19.409,14.648,-216.248
0.543,0.189,-0.418,20.996,8.301,-216.553
0.532,0.101,-0.415,19.775,5.737,-217.468
0.504,0.044,-0.422,15.808,6.653,-218.445
0.486,0.002,-0.421,9.277,8.728,-220.276
0.508,-0.042,-0.418,2.747,11.536,-221.558
0.548,-0.071,-0.416,-0.061,13.733,-222.900
0.582,-0.083,-0.428,0.183,14.404,-225.281
0.625,-0.105,-0.441,2.380,12.695,-228.333
0.638,-0.090,-0.475,6.165,8.911,-231.079
0.633,-0.145,-0.493,9.033,3.235,-234.375
0.594,-0.245,-0.479,11.230,-4.089,-238.831
0.538,-0.310,-0.470,11.108,-10.803,-242.371
0.473,-0.363,-0.443,8.423,-16.418,-246.277
0.395,-0.428,-0.405,6.226,-20.508,-249.817
0.298,-0.483,-0.409,5.798,-20.386,-247.986
0.267,-0.510,-0.431,4.150,-19.287,-238.770
0.313,-0.590,-0.409,-0.366,-21.912,-224.792
0.293,-0.586,-0.392,-6.348,-27.649,-211.182
0.347,-0.607,-0.356,-6.165,-35.645,-205.322
0.357,-0.666,-0.321,0.854,-43.945,-206.299
0.325,-0.710,-0.312,7.751,-52.307,-208.069
0.300,-0.752,-0.344,17.578,-58.044,-207.825
0.272,-0.847,-0.364,29.236,-60.974,-207.825
0.228,-0.936,-0.416,39.001,-63.904,-206.299
0.136,-0.966,-0.462,44.006,-65.735,-200.623
0.120,-1.080,-0.501,51.697,-66.528,-195.862
0.035,-1.144,-0.547,49.866,-66.956,-186.218
0.011,-1.209,-0.593,39.673,-66.467,-169.434
0.038,-1.259,-0.621,22.217,-67.444,-148.132
0.053,-1.302,-0.637,6.348,-69.397,-133.362
0.091,-1.393,-0.631,-2.380,-66.650,-127.441
-0.047,-1.382,-0.625,-9.094,-62.012,-126.038
-0.068,-1.500,-0.566,-7.996,-58.777,-131.775
-0.197,-1.504,-0.500,-4.700,-55.359,-138.245
-0.300,-1.542,-0.422,-0.977,-52.734,-140.808
-0.397,-1.554,-0.414,4.150,-52.795,-136.719
-0.482,-1.584,-0.459,9.460,-54.871,-128.906
-0.572,-1.601,-0.554,11.414,-54.321,-116.699
-0.655,-1.640,-0.665,5.615,-52.002,-95.642
-0.657,-1.632,-0.738,-9.521,-45.715,-63.293
-0.544,-1.548,-0.708,-32.288,-38.025,-26.672
-0.357,-1.437,-0.588,-52.551,-30.457,1.892

-2.481,1.606,-0.522,-109.741,82.520,360.596
-2.947,2.514,-0.606,-121.216,114.990,343.689
-3.176,3.334,-0.792,-111.572,163.696,332.458
-2.980,3.979,-1.281,-79.590,222.046,340.454
-2.018,4.000,-2.068,-37.842,271.057,379.150
-0.199,4.000,-3.126,1.404,295.959,438.660
3.411,4.000,-4.000,-25.208,302.490,500.122
4.000,3.999,-3.909,-52.551,271.667,487.000
4.000,1.548,-1.840,-21.790,79.834,218.872
2.306,1.752,-0.334,-110.046,-248.291,-131.592
-0.763,1.417,0.182,-92.896,-438.904,-317.261
-2.029,0.239,-0.150,1.343,-409.546,-320.679
-2.153,-0.927,-0.719,60.303,-218.994,-220.337
-1.713,-1.077,-1.250,10.986,24.048,-96.863
-1.099,-0.669,-1.313,-107.910,202.393,-4.639
-0.435,-0.053,-1.110,-193.848,291.260,50.964
0.194,0.357,-0.915,-204.407,293.152,82.703
0.624,0.551,-0.848,-149.048,207.092,88.013
0.716,0.667,-0.901,-58.594,72.388,70.679
0.620,0.675,-1.015,34.790,-52.979,42.114
0.479,0.602,-1.147,102.051,-131.653,19.165
0.373,0.494,-1.336,127.502,-155.212,5.005
0.313,0.441,-1.468,108.276,-130.615,-8.545
0.329,0.477,-1.506,56.763,-74.829,-23.621
0.436,0.536,-1.447,-4.578,-13.245,-36.987
0.562,0.609,-1.338,-55.237,32.898,-49.988
0.643,0.673,-1.230,-84.290,52.185,-63.965
0.657,0.738,-1.156,-90.027,44.373,-79.102
0.588,0.809,-1.127,-79.895,19.592,-96.130
0.484,0.885,-1.137,-62.378,-7.263,-113.770
0.364,0.930,-1.176,-46.631,-25.879,-129.456
0.219,0.958,-1.220,-38.879,-33.386,-143.250
0.114,0.962,-1.260,-39.429,-33.325,-156.006
0.046,0.965,-1.274,-47.913,-31.250,-167.786
0.010,0.983,-1.257,-61.768,-31.921,-179.749
-0.021,0.985,-1.199,-76.111,-36.743,-193.237
-0.028,0.939,-1.111,-85.449,-45.593,-207.275
-0.016,0.863,-1.024,-85.938,-58.044,-219.299
0.008,0.753,-0.970,-80.566,-71.960,-230.408
0.019,0.610,-0.928,-72.510,-83.679,-242.065
0.005,0.487,-0.898,-65.918,-91.370,-252.319
-0.006,0.413,-0.874,-63.354,-93.872,-259.705
0.017,0.328,-0.833,-63.843,-89.905,-267.883
0.029,0.283,-0.797,-64.514,-82.642,-280.090
0.034,0.272,-0.781,-63.965,-77.332,-295.105
0.022,0.256,-0.763,-61.157,-78.308,-310.486
-0.011,0.188,-0.724,-53.772,-86.060,-323.242
-0.025,0.095,-0.684,-40.527,-96.802,-328.247
0.027,-0.016,-0.658,-24.231,-106.995,-325.012
0.096,-0.151,-0.641,-9.094,-116.638,-319.397
0.094,-0.261,-0.630,1.282,-125.000,-314.819
0.057,-0.348,-0.632,6.897,-130.859,-311.646
0.010,-0.406,-0.647,8.972,-130.005,-307.922
-0.018,-0.438,-0.661,8.240,-121.521,-304.321
-0.007,-0.473,-0.684,5.615,-108.521,-302.612
-0.022,-0.495,-0.688,-0.977,-95.947,-307.556
-0.069,-0.533,-0.656,-9.521,-85.266,-315.857
-0.132,-0.562,-0.617,-15.503,-75.195,-320.801
-0.183,-0.578,-0.605,-16.907,-66.284,-320.435
-0.228,-0.643,-0.589,-15.015,-58.044,-313.171
-0.276,-0.700,-0.611,-12.634,-51.208,-300.415
-0.294,-0.745,-0.646,-15.320,-48.035,-283.081
-0.339,-0.784,-0.651,-23.254,-49.011,-265.564
-0.361,-0.799,-0.639,-33.875,-52.185,-247.742
-0.371,-0.819,-0.604,-44.922,-58.533,-233.032
-0.415,-0.849,-0.558,-53.772,-67.688,-224.365
-0.495,-0.867,-0.534,-57.251,-74.829,-217.285
-0.530,-0.929,-0.523,-54.321,-76.355,-209.839
-0.562,-0.996,-0.505,-49.194,-74.280,-204.712
-0.620,-1.050,-0.490,-44.373,-72.021,-200.500
-0.712,-1.115,-0.480,-39.124,-71.472,-194.153
-0.825,-1.204,-0.493,-34.241,-74.097,-182.800
-0.962,-1.333,-0.519,-33.997,-80.566,-163.757
-1.050,-1.411,-0.524,-42.542,-90.149,-134.399
-1.100,-1.438,-0.467,-59.082,-102.478,-101.257
-1.145,-1.414,-0.351,-76.050,-112.488,-74.585
-1.204,-1.367,-0.244,-84.167,-114.197,-57.556
-1.231,-1.344,-0.158,-81.665,-106.384,-45.837
-1.197,-1.344,-0.111,-72.083,-91.431,-32.898
-1.104,-1.312,-0.137,-59.753,-72.937,-17.700
-0.966,-1.272,-0.218,-49.927,-53.040,-1.892
-0.777,-1.219,-0.311,-45.959,-33.081,14.038
-0.598,-1.135,-0.408,-46.631,-15.320,27.161
-0.428,-1.070,-0.484,-47.546,-0.488,36.499
-0.267,-1.030,-0.558,-47.363,9.949,44.189
-0.146,-1.002,-0.604,-48.584,12.878,50.842
-0.028,-0.985,-0.603,-51.575,7.935,54.932
0.054,-0.960,-0.554,-53.955,-2.930,56.030
0.114,-0.951,-0.487,-52.551,-16.235,51.941
0.131,-0.951,-0.434,-47.668,-29.785,43.884
0.131,-0.946,-0.408,-41.138,-38.879,36.133
0.110,-0.951,-0.398,-34.790,-42.236,28.870
0.071,-0.974,-0.402,-29.236,-39.734,22.339
0.040,-1.002,-0.404,-25.391,-32.349,17.578
0.023,-1.022,-0.405,-23.193,-23.254,14.832
0.014,-1.033,-0.406,-21.973,-15.747,12.878
0.019,-1.043,-0.407,-21.179,-11.902,10.681
0.009,-1.038,-0.389,-20.996,-11.841,8.362
0.004,-1.022,-0.365,-19.531,-14.282,6.592
0.004,-1.002,-0.364,-15.320,-17.639,5.676
0.005,-0.991,-0.380,-9.521,-19.470,3.967
0.003,-0.987,-0.405,-3.845,-19.104,2.441
0.005,-0.987,-0.430,0.549,-17.517,2.625
0.023,-0.983,-0.456,2.563,-14.709,3.418
0.042,-0.978,-0.467,0.977,-9.705,3.052
0.068,-0.977,-0.454,-2.625,-4.272,2.441
0.095,-0.960,-0.430,-5.249,-0.671,2.258
0.119,-0.948,-0.405,-6.042,-0.244,1.709
0.129,-0.937,-0.382,-5.737,-2.197,0.366
0.122,-0.929,-0.366,-4.456,-4.700,-1.282
0.117,-0.921,-0.362,-2.380,-6.531,-2.625
0.110,-0.923,-0.356,-0.122,-7.629,-3.662
0.094,-0.933,-0.358,2.136,-7.812,-4.456
0.079,-0.939,-0.365,3.967,-7.874,-5.005
0.070,-0.951,-0.377,5.249,-7.751,-4.700
0.064,-0.953,-0.385,5.249,-7.874,-4.089
0.059,-0.944,-0.383,4.944,-8.057,-3.113
0.060,-0.933,-0.390,5.493,-8.240,-1.282
0.059,-0.923,-0.410,6.897,-7.629,0.305

-0.593,-1.805,-0.272,48.096,99.121,259.521
-0.660,-1.850,-0.281,50.659,91.614,277.405
-0.728,-1.896,-0.283,52.612,81.665,297.302
-0.802,-1.931,-0.269,53.406,70.679,313.843
-0.891,-1.926,-0.249,51.270,59.265,326.782
-0.995,-1.917,-0.220,46.814,49.011,338.928
-1.078,-1.886,-0.182,40.894,42.664,352.051
-1.146,-1.849,-0.161,33.630,41.626,367.920
-1.234,-1.754,-0.152,24.963,48.218,384.338
-1.369,-1.512,-0.146,12.939,60.852,402.405
-1.560,-1.108,-0.154,-3.906,78.552,424.988
-1.812,-0.479,-0.197,-25.757,99.854,447.754
-2.166,0.408,-0.247,-51.147,126.526,467.041
-2.601,1.506,-0.297,-71.655,163.025,479.126
-3.138,2.823,-0.376,-75.317,214.417,483.032
-3.573,3.988,-0.620,-53.894,281.616,480.042
-3.725,4.000,-1.199,-13.794,353.088,482.178
-3.249,4.000,-2.291,30.029,415.955,497.009
-1.562,4.000,-3.825,72.693,454.834,521.851
2.762,4.000,-4.000,88.745,459.717,555.786
4.000,4.000,-4.000,26.978,476.868,608.948
4.000,1.811,-4.000,100.647,415.100,419.678
4.000,1.756,-1.984,-92.468,-34.363,-10.986
0.593,2.821,0.029,-247.803,-519.958,-289.001
-1.773,1.280,0.307,-94.177,-722.351,-368.225
-2.488,-0.749,-0.031,77.393,-628.357,-364.807
-2.783,-1.518,-0.802,102.844,-285.950,-252.869
-2.392,-1.377,-1.024,-35.767,96.375,-124.390
-1.369,-0.797,-0.796,-197.510,367.859,-23.254
-0.595,-0.134,-0.522,-266.357,479.797,47.729
-0.078,0.169,-0.553,-215.393,445.129,89.905
0.291,0.295,-0.853,-94.116,286.438,110.840
0.500,0.445,-1.215,35.400,65.125,114.502
0.657,0.533,-1.477,135.864,-135.620,106.934
0.686,0.512,-1.601,185.791,-260.925,95.581
0.639,0.396,-1.628,182.251,-291.565,75.500
0.533,0.329,-1.555,130.798,-237.793,41.626
0.481,0.328,-1.397,52.185,-135.986,4.883
0.530,0.406,-1.262,-23.987,-29.297,-22.034
0.658,0.540,-1.173,-77.881,49.866,-41.931
0.781,0.685,-1.131,-102.844,82.703,-60.730
0.792,0.790,-1.151,-101.135,72.144,-78.125
0.720,0.844,-1.218,-81.909,32.410,-94.482
0.589,0.863,-1.272,-55.664,-20.325,-110.779
0.433,0.906,-1.327,-33.203,-69.092,-126.099
0.309,0.900,-1.325,-20.569,-100.342,-140.381
0.238,0.855,-1.281,-20.203,-108.948,-153.870
0.175,0.859,-1.227,-31.433,-100.769,-165.771
0.158,0.832,-1.152,-48.035,-83.923,-178.040
0.145,0.762,-1.079,-62.805,-65.674,-190.857
0.103,0.698,-1.032,-71.533,-52.490,-203.369
0.062,0.660,-0.999,-73.730,-48.889,-214.661
0.002,0.611,-0.971,-70.313,-54.565,-224.731
-0.076,0.551,-0.942,-63.660,-65.308,-231.140
-0.125,0.494,-0.893,-56.458,-76.416,-233.154
-0.083,0.438,-0.844,-49.683,-83.252,-231.873
0.008,0.359,-0.786,-44.373,-86.060,-230.469
0.109,0.221,-0.717,-38.452,-89.355,-229.980
0.206,0.064,-0.657,-31.738,-93.506,-229.431
0.269,-0.056,-0.623,-27.161,-95.398,-229.065
0.298,-0.132,-0.607,-24.536,-93.933,-231.018
0.312,-0.235,-0.598,-20.996,-89.722,-236.633
0.269,-0.309,-0.592,-16.541,-85.876,-244.873
0.190,-0.356,-0.571,-11.292,-84.961,-253.723
0.110,-0.380,-0.572,-4.517,-83.496,-257.935
0.077,-0.428,-0.599,0.793,-79.468,-255.920
0.089,-0.499,-0.609,2.563,-75.317,-250.305
0.120,-0.569,-0.593,2.808,-73.364,-243.652
0.177,-0.644,-0.571,3.662,-72.693,-237.122
0.232,-0.702,-0.551,4.517,-73.059,-231.567
0.228,-0.722,-0.541,4.333,-74.829,-231.262
0.160,-0.747,-0.536,3.235,-76.233,-233.704
0.088,-0.770,-0.531,0.427,-76.965,-232.727
0.028,-0.793,-0.516,-4.089,-76.477,-226.929
-0.010,-0.801,-0.505,-8.667,-75.562,-220.825
-0.028,-0.809,-0.498,-11.658,-73.669,-216.431
-0.028,-0.822,-0.495,-12.329,-71.411,-217.957
-0.052,-0.836,-0.491,-10.010,-69.458,-223.816
-0.083,-0.888,-0.507,-3.845,-67.566,-229.614
-0.142,-0.945,-0.543,3.479,-66.345,-231.628
-0.209,-0.976,-0.602,8.423,-66.345,-230.286
-0.275,-1.026,-0.627,10.864,-67.627,-225.891
-0.376,-1.079,-0.648,10.498,-69.946,-218.506
-0.472,-1.134,-0.657,6.470,-72.754,-204.407
-0.507,-1.163,-0.644,-1.465,-75.562,-183.411
-0.511,-1.175,-0.602,-12.634,-79.346,-163.513
-0.513,-1.170,-0.534,-23.621,-82.703,-148.743
-0.513,-1.167,-0.471,-31.494,-84.106,-137.268
-0.527,-1.161,-0.434,-35.095,-84.656,-128.540
-0.548,-1.145,-0.399,-34.546,-84.106,-120.544
-0.537,-1.148,-0.366,-30.029,-82.947,-112.061
-0.528,-1.146,-0.352,-23.193,-82.275,-103.577
-0.527,-1.124,-0.351,-16.296,-82.214,-95.520
-0.516,-1.127,-0.380,-10.498,-81.848,-86.548
-0.556,-1.151,-0.472,-8.362,-78.857,-76.660
-0.579,-1.168,-0.558,-12.512,-70.068,-63.660
-0.538,-1.165,-0.611,-23.743,-58.167,-47.913
-0.495,-1.148,-0.603,-38.330,-47.424,-36.560
-0.451,-1.103,-0.562,-49.316,-41.443,-30.090
-0.378,-1.079,-0.516,-52.368,-42.236,-25.146
-0.318,-1.063,-0.481,-49.683,-48.767,-20.996
-0.266,-1.034,-0.452,-45.288,-57.556,-15.930
-0.200,-0.995,-0.439,-39.856,-63.904,-7.935
-0.113,-0.979,-0.467,-33.447,-62.988,-2.808
-0.053,-0.972,-0.504,-29.724,-54.871,-3.052
-0.023,-0.976,-0.539,-29.236,-44.250,-4.517
-0.013,-1.000,-0.566,-30.396,-35.156,-5.737
-0.034,-1.016,-0.575,-32.288,-31.006,-8.240
-0.049,-1.022,-0.563,-32.959,-31.860,-8.545
-0.056,-1.021,-0.534,-32.410,-36.316,-6.836
-0.050,-1.001,-0.498,-30.823,-41.138,-4.761
-0.020,-0.984,-0.467,-27.893,-44.128,-1.892
0.005,-0.968,-0.435,-24.963,-44.800,-0.427
0.030,-0.954,-0.426,-21.912,-42.297,-1.099
0.048,-0.957,-0.428,-18.311,-35.950,-1.953
0.040,-0.966,-0.441,-14.954,-26.672,-3.662
0.015,-0.978,-0.464,-10.681,-17.639,-5.127
0.006,-0.988,-0.504,-6.409,-11.108,-5.615
0.007,-0.994,-0.534,-4.089,-8.667,-5.005

-2.220,1.104,-0.450,-64.148,69.580,287.292
-2.692,1.936,-0.567,-64.636,112.732,296.021
-2.896,2.703,-0.856,-50.720,174.377,319.092
-2.648,3.311,-1.369,-24.597,233.765,350.769
-1.905,3.796,-2.089,2.869,270.691,387.573
-0.523,4.000,-3.087,30.396,274.780,416.809
2.474,4.000,-4.000,41.016,259.399,451.355
4.000,4.000,-4.000,27.954,216.431,476.807
4.000,2.281,-2.249,81.055,43.823,279.480
3.084,1.660,-0.741,22.888,-249.512,-76.721
-0.132,1.080,0.045,-15.259,-427.795,-307.129
-1.846,-0.142,-0.162,9.583,-365.723,-335.022
-2.101,-1.178,-0.732,9.888,-140.564,-232.300
-1.518,-1.249,-1.182,-61.035,112.122,-100.586
-0.789,-0.636,-1.214,-162.292,281.860,-13.550
-0.070,0.083,-1.069,-210.815,335.144,38.513
0.476,0.486,-0.950,-181.763,280.273,73.059
0.797,0.620,-0.893,-101.807,151.489,81.116
0.847,0.627,-0.866,-9.033,5.737,66.711
0.690,0.549,-0.890,70.740,-102.173,43.396
0.488,0.386,-0.970,118.896,-149.475,23.987
0.332,0.210,-1.129,128.357,-142.700,9.644
0.231,0.093,-1.256,100.464,-98.938,-4.456
0.177,0.030,-1.295,48.828,-39.185,-14.771
0.210,0.025,-1.245,-5.005,10.986,-15.747
0.299,0.067,-1.125,-47.363,37.842,-11.841
0.394,0.130,-0.992,-70.862,43.640,-9.888
0.433,0.195,-0.883,-77.148,36.682,-10.010
0.451,0.236,-0.828,-71.045,27.100,-10.986
0.457,0.281,-0.840,-57.373,19.958,-13.306
0.477,0.322,-0.898,-40.955,15.015,-16.541
0.502,0.356,-0.971,-26.367,9.766,-20.020
0.525,0.401,-1.043,-16.235,1.160,-23.560
0.553,0.427,-1.108,-11.230,-8.850,-26.917
0.601,0.436,-1.154,-12.024,-16.907,-31.921
0.640,0.456,-1.184,-19.226,-18.616,-41.138
0.665,0.465,-1.190,-29.724,-15.198,-54.810
0.649,0.479,-1.179,-38.208,-11.292,-70.129
0.602,0.510,-1.167,-41.748,-11.169,-83.069
0.563,0.549,-1.141,-39.917,-16.846,-91.980
0.531,0.602,-1.114,-34.912,-26.672,-98.083
0.511,0.651,-1.083,-28.748,-38.452,-103.638
0.501,0.687,-1.049,-21.973,-50.598,-110.046
0.495,0.682,-1.008,-16.479,-61.890,-117.432
0.486,0.649,-0.970,-11.475,-71.655,-125.916
0.462,0.609,-0.951,-6.897,-78.796,-134.827
0.447,0.572,-0.954,-2.991,-83.069,-143.494
0.429,0.533,-0.996,0.244,-84.839,-150.391
0.391,0.515,-1.065,1.282,-84.229,-156.494
0.370,0.499,-1.117,-3.601,-80.322,-162.903
0.336,0.495,-1.129,-15.442,-74.097,-169.373
0.327,0.484,-1.089,-30.273,-68.665,-175.049
0.352,0.480,-1.011,-41.992,-65.979,-178.040
0.398,0.456,-0.931,-46.509,-66.956,-178.711
0.461,0.388,-0.861,-41.931,-73.242,-179.321
0.506,0.324,-0.835,-31.616,-83.008,-179.138
0.537,0.249,-0.839,-20.935,-91.919,-180.359
0.544,0.165,-0.844,-14.709,-97.900,-184.814
0.540,0.094,-0.837,-12.756,-100.098,-190.369
0.521,0.062,-0.821,-13.489,-100.220,-196.533
0.506,0.002,-0.793,-14.771,-98.450,-202.271
0.467,-0.070,-0.763,-16.174,-96.252,-207.153
0.424,-0.127,-0.748,-18.188,-95.215,-208.740
0.446,-0.201,-0.722,-21.729,-96.130,-204.285
0.512,-0.294,-0.683,-24.902,-98.755,-196.533
0.555,-0.365,-0.626,-26.855,-103.210,-190.796
0.550,-0.401,-0.564,-26.855,-108.459,-189.697
0.527,-0.441,-0.510,-23.804,-110.229,-191.528
0.502,-0.481,-0.474,-18.860,-107.178,-193.665
0.475,-0.509,-0.440,-15.503,-102.478,-197.998
0.421,-0.540,-0.403,-13.184,-97.473,-203.430
0.397,-0.554,-0.398,-11.414,-92.407,-208.862
0.366,-0.555,-0.408,-10.986,-87.646,-213.257
0.336,-0.585,-0.406,-11.108,-83.374,-216.736
0.303,-0.639,-0.391,-12.451,-79.956,-218.628
0.276,-0.659,-0.380,-13.367,-76.294,-219.482
0.263,-0.691,-0.362,-12.024,-71.289,-220.154
0.238,-0.731,-0.343,-10.437,-67.688,-221.130
0.185,-0.753,-0.315,-8.606,-68.420,-221.619
0.127,-0.773,-0.296,-5.676,-70.923,-220.581
0.108,-0.801,-0.293,-2.380,-72.754,-217.468
0.100,-0.813,-0.288,-0.427,-74.585,-213.928
0.064,-0.830,-0.262,-0.488,-76.355,-212.585
0.011,-0.847,-0.220,-0.183,-76.721,-211.548
-0.048,-0.861,-0.182,1.465,-74.524,-208.191
-0.098,-0.871,-0.155,3.967,-70.007,-203.003
-0.132,-0.884,-0.130,7.385,-63.721,-196.167
-0.142,-0.889,-0.119,12.451,-57.312,-190.002
-0.128,-0.881,-0.127,16.785,-52.063,-187.988
-0.121,-0.895,-0.107,19.409,-46.753,-192.810
-0.135,-0.913,-0.092,20.142,-37.170,-199.951
-0.181,-0.959,-0.080,19.470,-21.912,-205.383
-0.250,-1.054,-0.114,17.212,-3.662,-207.214
-0.351,-1.175,-0.185,11.475,17.212,-198.547
-0.422,-1.266,-0.279,1.160,35.156,-175.171
-0.444,-1.319,-0.373,-10.925,40.710,-141.846
-0.451,-1.331,-0.403,-20.996,28.809,-108.948
-0.479,-1.304,-0.394,-24.414,-0.732,-83.252
-0.523,-1.297,-0.384,-20.447,-42.908,-65.308
-0.592,-1.288,-0.385,-12.756,-86.304,-51.758
-0.645,-1.284,-0.389,-5.432,-116.577,-39.734
-0.632,-1.286,-0.380,-1.709,-127.380,-26.428
-0.593,-1.258,-0.375,-3.418,-119.080,-12.939
-0.519,-1.219,-0.380,-6.775,-96.680,-4.578
-0.423,-1.186,-0.420,-10.376,-69.336,-1.831
-0.346,-1.170,-0.457,-14.954,-47.424,-3.174
-0.291,-1.159,-0.480,-17.395,-34.790,-5.310
-0.228,-1.141,-0.504,-16.846,-31.921,-4.700
-0.153,-1.125,-0.537,-14.526,-35.950,-2.014
-0.090,-1.104,-0.556,-12.207,-43.396,1.709
-0.034,-1.074,-0.562,-11.047,-51.453,5.859
0.014,-1.054,-0.555,-9.521,-57.068,10.498
0.044,-1.022,-0.537,-8.789,-60.608,13.428
0.049,-1.001,-0.522,-7.446,-62.866,13.000
0.025,-0.997,-0.524,-5.066,-62.012,9.705
-0.002,-0.998,-0.537,-2.502,-57.739,5.737
-0.027,-0.995,-0.549,-1.160,-51.025,2.441
-0.038,-0.995,-0.544,-1.099,-43.518,0.854
-0.028,-0.999,-0.532,-1.160,-35.767,0.977

-2.019,1.525,-0.411,-20.569,217.590,278.503
-2.320,2.204,-0.614,-4.333,246.338,260.132
-2.443,2.808,-0.858,21.912,275.208,242.493
-2.259,3.340,-1.276,64.575,298.584,229.736
-1.709,3.697,-2.031,114.136,310.486,229.431
-0.734,3.988,-3.139,161.438,300.720,244.568
1.501,4.000,-4.000,181.396,270.142,292.725
4.000,4.000,-4.000,110.657,210.937,390.076
4.000,2.387,-3.370,123.413,73.669,368.713
3.416,1.028,-1.628,71.777,-174.988,109.497
0.967,1.498,-0.322,-42.053,-407.532,-180.237
-0.684,1.068,0.077,-51.880,-437.927,-321.777
-1.022,0.046,-0.084,-18.799,-268.005,-290.283
-0.922,-0.524,-0.537,-19.226,-26.550,-203.247
-0.631,-0.614,-0.908,-73.120,175.781,-133.240
-0.316,-0.488,-1.034,-134.216,280.945,-88.623
-0.135,-0.224,-1.021,-161.316,293.823,-53.284
0.023,-0.065,-0.928,-145.813,231.079,-22.339
0.166,0.017,-0.809,-96.802,118.103,-1.221
0.217,0.089,-0.746,-29.541,-1.587,10.437
0.225,0.155,-0.781,40.833,-91.431,16.907
0.288,0.224,-0.946,97.107,-139.343,24.841
0.417,0.307,-1.111,121.521,-148.010,31.799
0.574,0.420,-1.218,113.342,-125.061,30.029
0.731,0.545,-1.285,86.609,-85.632,17.090
0.864,0.654,-1.301,51.636,-47.241,-3.662
0.923,0.725,-1.295,18.799,-20.630,-32.227
0.906,0.751,-1.274,-5.432,-10.071,-66.711
0.760,0.751,-1.227,-20.630,-12.573,-99.121
0.597,0.728,-1.173,-26.062,-25.513,-123.352
0.472,0.667,-1.115,-24.963,-40.955,-135.315
0.408,0.583,-1.041,-21.545,-53.467,-137.512
0.390,0.503,-0.970,-17.883,-60.242,-137.695
0.390,0.445,-0.913,-16.418,-59.753,-139.038
0.418,0.404,-0.881,-17.151,-55.237,-141.724
0.468,0.373,-0.873,-20.264,-49.316,-147.095
0.507,0.346,-0.884,-23.193,-45.532,-156.494
0.478,0.338,-0.909,-23.987,-47.058,-169.434
0.447,0.327,-0.951,-22.827,-53.528,-180.176
0.457,0.284,-0.961,-22.339,-64.880,-187.866
0.461,0.250,-0.925,-22.522,-78.125,-196.167
0.464,0.209,-0.882,-22.217,-86.121,-204.651
0.507,0.134,-0.829,-21.851,-86.670,-212.463
0.569,0.082,-0.784,-22.766,-83.374,-218.811
0.629,0.061,-0.744,-23.987,-79.590,-226.501
0.674,0.029,-0.714,-23.682,-77.087,-238.037
0.655,0.004,-0.683,-21.790,-77.454,-251.465
0.601,-0.021,-0.657,-18.250,-77.393,-263.550
0.542,-0.072,-0.640,-14.038,-73.853,-271.362
0.516,-0.133,-0.641,-10.559,-68.359,-275.879
0.498,-0.182,-0.649,-8.972,-63.354,-279.602
0.482,-0.252,-0.646,-9.155,-60.974,-283.203
0.455,-0.344,-0.619,-10.254,-60.730,-286.072
0.399,-0.415,-0.595,-11.169,-61.707,-287.048
0.355,-0.447,-0.571,-11.780,-61.096,-285.583
0.335,-0.498,-0.554,-12.085,-57.312,-281.616
0.307,-0.526,-0.552,-14.648,-52.002,-278.015
0.266,-0.533,-0.533,-18.677,-48.035,-278.259
0.222,-0.551,-0.507,-21.912,-44.556,-280.273
0.159,-0.586,-0.467,-23.499,-42.358,-281.860
0.107,-0.609,-0.441,-22.095,-41.382,-280.823
0.097,-0.681,-0.427,-18.494,-39.185,-274.475
0.077,-0.746,-0.421,-15.503,-36.133,-263.855
0.054,-0.799,-0.422,-13.367,-33.386,-253.052
0.020,-0.826,-0.427,-12.390,-31.677,-242.187
-0.008,-0.848,-0.439,-12.451,-30.396,-231.262
-0.060,-0.859,-0.434,-13.794,-30.212,-222.351
-0.108,-0.860,-0.437,-14.954,-29.663,-214.050
-0.151,-0.882,-0.435,-16.113,-27.893,-204.102
-0.198,-0.891,-0.436,-18.066,-25.146,-194.031
-0.233,-0.905,-0.426,-20.020,-22.278,-182.617
-0.257,-0.928,-0.412,-20.630,-19.043,-168.945
-0.286,-0.935,-0.399,-20.508,-17.334,-154.297
-0.314,-0.946,-0.405,-18.372,-16.418,-139.282
-0.344,-0.963,-0.414,-15.686,-14.404,-125.549
-0.365,-0.974,-0.430,-14.526,-11.047,-111.938
-0.375,-0.968,-0.442,-15.076,-7.385,-100.098
-0.367,-0.969,-0.453,-15.381,-3.784,-92.102
-0.356,-0.985,-0.466,-15.442,-2.197,-87.463
-0.343,-1.001,-0.466,-16.052,-3.174,-85.693
-0.352,-1.009,-0.461,-16.785,-5.920,-85.815
-0.370,-1.025,-0.460,-16.724,-10.803,-85.754
-0.401,-1.036,-0.446,-16.418,-18.372,-84.412
-0.438,-1.044,-0.424,-14.893,-26.489,-81.299
-0.474,-1.033,-0.407,-12.268,-34.607,-75.134
-0.470,-1.022,-0.407,-9.277,-40.833,-65.857
-0.443,-1.024,-0.396,-8.057,-44.678,-56.152
-0.420,-1.018,-0.369,-9.705,-46.936,-48.828
-0.394,-0.998,-0.348,-11.475,-47.546,-42.603
-0.371,-0.989,-0.337,-12.329,-44.800,-37.598
-0.359,-0.980,-0.343,-12.390,-38.574,-34.607
-0.344,-0.957,-0.357,-12.146,-29.785,-32.471
-0.322,-0.942,-0.374,-11.169,-20.935,-30.762
-0.291,-0.935,-0.406,-9.949,-14.709,-30.640
-0.280,-0.932,-0.425,-9.399,-11.658,-31.372
-0.263,-0.936,-0.437,-9.216,-12.024,-32.959
-0.265,-0.946,-0.430,-10.193,-16.296,-32.837
-0.258,-0.947,-0.417,-10.498,-23.499,-30.945
-0.235,-0.950,-0.399,-10.681,-31.799,-26.611
-0.213,-0.946,-0.382,-11.230,-38.696,-21.973
-0.205,-0.941,-0.360,-11.597,-44.006,-18.616
-0.213,-0.936,-0.351,-10.742,-46.753,-16.418
-0.236,-0.938,-0.367,-8.545,-45.776,-15.015
-0.259,-0.946,-0.398,-6.042,-40.588,-14.221
-0.289,-0.959,-0.455,-5.127,-33.508,-13.672
-0.337,-0.978,-0.507,-7.202,-25.879,-14.404
-0.371,-0.997,-0.543,-10.559,-18.005,-14.587
-0.396,-1.009,-0.570,-13.855,-12.146,-12.756
-0.417,-1.020,-0.580,-16.235,-10.254,-9.338
-0.413,-1.025,-0.579,-18.127,-11.597,-4.639
-0.386,-1.021,-0.563,-19.409,-14.709,1.648
-0.343,-1.008,-0.526,-20.020,-19.043,7.446
-0.288,-0.993,-0.488,-19.104,-23.621,11.719
-0.241,-0.982,-0.453,-17.273,-27.100,14.465
-0.202,-0.968,-0.427,-14.832,-29.358,15.747
-0.161,-0.954,-0.419,-11.902,-28.870,16.968
-0.117,-0.948,-0.422,-9.705,-25.635,17.151
-0.086,-0.944,-0.425,-9.338,-20.752,15.259
-0.073,-0.942,-0.424,-10.254,-15.564,11.536

-0.578,-1.707,-0.309,9.338,85.449,219.360
-0.635,-1.728,-0.286,8.606,85.693,229.858
-0.701,-1.762,-0.249,7.812,83.557,238.708
-0.766,-1.777,-0.204,6.653,77.942,245.728
-0.827,-1.761,-0.163,6.287,69.092,253.235
-0.865,-1.686,-0.131,6.165,60.730,264.893
-0.886,-1.559,-0.119,5.615,56.702,282.227
-0.896,-1.393,-0.100,3.601,58.594,302.795
-0.904,-1.189,-0.086,0.305,66.528,322.510
-0.913,-0.922,-0.071,-3.540,80.688,342.163
-0.923,-0.629,-0.039,-6.104,98.938,363.831
-0.947,-0.276,-0.011,-5.005,118.530,383.850
-0.996,0.173,-0.021,-0.183,138.306,403.442
-1.084,0.687,-0.038,9.094,159.302,423.035
-1.188,1.228,-0.086,24.719,181.763,438.232
-1.344,1.843,-0.163,42.786,204.407,443.542
-1.482,2.480,-0.320,61.890,227.356,437.012
-1.625,3.121,-0.514,79.224,248.535,420.898
-1.686,3.703,-0.789,97.839,267.029,396.851
-1.637,4.000,-1.194,119.385,279.785,374.390
-1.232,4.000,-1.891,148.254,290.283,359.314
-0.244,4.000,-2.962,175.720,303.101,351.318
1.967,4.000,-4.000,182.800,329.407,357.788
4.000,4.000,-4.000,77.515,380.676,401.672
4.000,2.326,-4.000,-33.691,409.607,394.653
3.618,0.918,-2.609,-106.323,220.032,217.773
1.893,1.277,-0.902,-249.023,-133.484,7.690
0.594,1.902,0.130,-259.155,-376.221,-127.380
0.103,1.080,0.398,-143.982,-405.579,-186.401
0.103,0.182,0.257,-6.409,-291.077,-211.548
-0.210,0.040,-0.368,58.655,-113.403,-228.882
-0.408,-0.005,-0.994,53.955,64.392,-225.952
-0.313,-0.073,-1.434,13.184,197.510,-194.824
-0.095,-0.057,-1.612,-44.373,259.460,-143.738
0.169,0.038,-1.579,-95.459,235.352,-102.356
0.332,0.177,-1.427,-117.188,147.949,-85.876
0.323,0.250,-1.295,-100.342,41.565,-90.515
0.241,0.266,-1.235,-57.007,-50.293,-98.816
0.169,0.254,-1.246,-10.437,-117.371,-99.670
0.144,0.244,-1.310,21.667,-153.870,-94.727
0.157,0.240,-1.354,33.630,-161.743,-91.064
0.192,0.224,-1.333,25.757,-145.691,-92.957
0.213,0.232,-1.279,4.578,-114.868,-100.342
0.267,0.232,-1.227,-19.165,-81.970,-111.633
0.310,0.212,-1.171,-40.527,-57.251,-123.657
0.323,0.195,-1.124,-55.847,-46.570,-133.972
0.298,0.156,-1.075,-62.744,-47.974,-140.320
0.278,0.079,-1.015,-61.951,-56.335,-142.639
0.257,-0.003,-0.958,-58.228,-64.636,-141.541
0.246,-0.094,-0.909,-54.199,-70.374,-139.343
0.232,-0.164,-0.860,-51.270,-72.632,-137.756
0.223,-0.223,-0.820,-49.011,-70.679,-136.292
0.240,-0.283,-0.792,-46.387,-66.650,-133.118
0.273,-0.335,-0.778,-41.992,-63.354,-128.540
0.312,-0.390,-0.774,-36.743,-63.232,-123.291
0.339,-0.428,-0.783,-31.616,-68.115,-117.676
0.345,-0.444,-0.798,-26.978,-75.195,-114.441
0.322,-0.467,-0.803,-24.353,-80.933,-113.403
0.279,-0.494,-0.804,-24.780,-83.862,-112.671
0.239,-0.498,-0.801,-29.358,-83.984,-111.389
0.214,-0.510,-0.772,-36.560,-79.590,-109.497
0.203,-0.511,-0.734,-44.861,-71.838,-107.361
0.210,-0.505,-0.692,-51.758,-63.232,-104.919
0.246,-0.525,-0.634,-56.213,-55.481,-101.685
0.293,-0.544,-0.582,-57.739,-51.147,-98.083
0.331,-0.523,-0.576,-55.603,-49.316,-94.482
0.383,-0.545,-0.580,-50.354,-47.119,-91.858
0.404,-0.571,-0.587,-44.250,-46.448,-91.919
0.391,-0.570,-0.608,-37.720,-48.584,-94.360
0.387,-0.586,-0.629,-30.334,-51.025,-95.947
0.376,-0.618,-0.641,-24.048,-54.443,-96.741
0.355,-0.646,-0.644,-20.081,-59.265,-98.328
0.330,-0.678,-0.638,-18.005,-63.477,-100.342
0.323,-0.694,-0.638,-17.944,-65.430,-101.746
0.331,-0.720,-0.623,-19.714,-65.613,-102.173
0.321,-0.736,-0.596,-22.827,-64.941,-102.173
0.296,-0.707,-0.584,-25.940,-63.904,-102.173
0.276,-0.719,-0.578,-28.137,-60.730,-100.098
0.263,-0.733,-0.579,-31.433,-56.763,-94.727
0.251,-0.747,-0.572,-36.377,-54.993,-87.646
0.258,-0.766,-0.557,-39.490,-55.054,-81.726
0.269,-0.798,-0.529,-39.856,-56.091,-77.820
0.285,-0.828,-0.507,-36.804,-58.960,-76.294
0.289,-0.851,-0.497,-31.921,-63.293,-76.599
0.290,-0.865,-0.490,-26.794,-68.665,-77.271
0.290,-0.869,-0.486,-22.156,-73.181,-77.271
0.299,-0.888,-0.473,-19.409,-76.416,-77.576
0.289,-0.893,-0.443,-18.860,-77.820,-79.651
0.273,-0.907,-0.397,-18.250,-76.721,-83.618
0.256,-0.925,-0.362,-16.724,-72.998,-88.623
0.227,-0.932,-0.348,-14.099,-67.993,-95.032
0.198,-0.951,-0.333,-11.292,-62.195,-100.708
0.182,-0.972,-0.316,-8.606,-55.786,-103.821
0.180,-0.978,-0.307,-5.432,-49.561,-105.164
0.193,-0.975,-0.309,-1.770,-43.396,-106.140
0.215,-0.987,-0.312,1.953,-38.940,-108.643
0.211,-0.996,-0.298,4.211,-36.804,-113.159
0.191,-0.980,-0.288,6.775,-36.316,-120.056
0.163,-0.980,-0.283,11.047,-35.889,-127.258
0.118,-0.986,-0.280,15.930,-35.767,-132.202
0.075,-0.984,-0.286,21.729,-35.889,-135.864
0.048,-0.970,-0.303,27.405,-35.400,-137.207
0.034,-0.955,-0.316,32.593,-34.485,-137.634
0.021,-0.959,-0.328,36.926,-33.203,-137.024
-0.003,-0.951,-0.349,39.734,-32.227,-134.949
-0.015,-0.952,-0.392,39.795,-31.677,-130.981
-0.028,-0.965,-0.426,36.133,-31.250,-124.329
-0.029,-0.972,-0.451,29.541,-31.555,-115.540
-0.036,-0.965,-0.452,22.095,-32.898,-106.140
-0.017,-0.947,-0.448,17.090,-35.767,-97.900
0.003,-0.932,-0.435,14.404,-39.124,-91.614
0.016,-0.906,-0.417,14.893,-41.809,-87.952
0.033,-0.887,-0.401,18.677,-43.213,-84.229
0.051,-0.881,-0.392,24.292,-44.067,-80.322
0.061,-0.883,-0.397,29.663,-45.105,-77.271
0.059,-0.895,-0.405,33.325,-47.119,-76.233
0.045,-0.902,-0.419,34.607,-49.072,-75.623
0.027,-0.904,-0.436,33.203,-50.049,-73.608
0.017,-0.911,-0.457,30.518,-48.279,-71.350

-0.469,-1.986,-0.316,-6.104,10.071,140.503
-0.597,-2.102,-0.260,-16.235,24.475,148.071
-0.721,-2.194,-0.206,-27.466,41.748,155.762
-0.881,-2.253,-0.190,-38.025,61.951,166.687
-1.029,-2.263,-0.179,-47.119,82.703,185.242
-1.144,-2.230,-0.149,-54.504,101.685,209.045
-1.236,-2.137,-0.099,-59.998,116.272,234.375
-1.314,-2.014,-0.036,-60.059,124.268,258.484
-1.388,-1.865,0.017,-52.612,126.648,283.142
-1.457,-1.685,0.043,-38.025,123.779,308.960
-1.474,-1.487,0.044,-18.127,116.821,338.074
-1.457,-1.275,0.032,4.456,108.704,370.972
-1.407,-1.060,-0.010,26.428,100.891,404.419
-1.360,-0.843,-0.058,43.396,92.407,433.411
-1.372,-0.573,-0.130,52.612,83.801,453.857
-1.472,-0.188,-0.214,52.551,75.256,466.614
-1.646,0.345,-0.324,44.861,69.458,474.609
-1.898,1.029,-0.458,32.959,64.880,476.135
-2.225,1.863,-0.672,18.860,60.303,472.961
-2.586,2.826,-0.967,-1.404,63.110,465.393
-2.901,3.821,-1.321,-30.823,87.952,451.660
-2.893,4.000,-1.824,-60.364,140.503,442.688
-2.171,4.000,-2.631,-87.280,215.210,452.759
-0.483,4.000,-3.720,-115.845,302.551,472.412
3.506,4.000,-4.000,-179.565,389.343,507.690
4.000,4.000,-4.000,-316.528,458.801,569.824
4.000,3.325,-1.874,-284.973,339.783,445.129
4.000,2.746,0.086,-270.142,-74.890,74.463
1.369,2.200,1.428,-163.086,-429.626,-229.736
-0.381,0.917,1.062,52.368,-483.521,-338.806
-1.192,0.002,0.092,211.060,-358.337,-278.503
-1.122,-0.433,-1.088,260.437,-157.227,-154.602
-0.588,-0.573,-1.857,201.233,21.118,-47.729
0.041,-0.506,-2.182,89.966,119.141,5.615
0.413,-0.389,-2.059,-19.958,143.677,0.366
0.434,-0.186,-1.704,-98.389,120.850,-31.067
0.319,-0.046,-1.323,-136.169,74.707,-50.415
0.241,0.062,-0.994,-135.132,33.142,-48.340
0.287,0.173,-0.763,-108.093,6.226,-32.715
0.413,0.323,-0.653,-69.946,-14.648,-13.367
0.561,0.470,-0.672,-28.015,-35.767,1.282
0.710,0.587,-0.762,11.841,-54.443,9.644
0.834,0.700,-0.885,44.189,-64.941,10.620
0.957,0.759,-0.999,61.340,-65.430,2.808
1.026,0.789,-1.079,59.387,-59.814,-14.282
0.998,0.812,-1.098,44.189,-51.147,-43.945
0.856,0.787,-1.074,25.757,-41.504,-81.909
0.739,0.734,-1.034,8.545,-31.006,-115.662
0.600,0.674,-0.968,-6.958,-22.827,-133.728
0.521,0.625,-0.876,-18.127,-19.836,-140.991
0.490,0.589,-0.780,-22.095,-21.667,-145.508
0.482,0.542,-0.701,-19.775,-24.780,-148.315
0.461,0.494,-0.630,-13.855,-26.794,-151.489
0.459,0.461,-0.603,-5.676,-26.733,-156.006
0.475,0.394,-0.595,4.089,-24.475,-159.912
0.456,0.345,-0.620,14.832,-21.118,-163.635
0.447,0.296,-0.681,24.292,-18.066,-168.030
0.424,0.224,-0.743,28.198,-16.602,-172.852
0.407,0.154,-0.791,25.269,-17.395,-178.894
0.383,0.105,-0.814,16.418,-18.677,-183.716
0.385,0.025,-0.784,4.150,-18.799,-185.974
0.398,-0.048,-0.730,-6.897,-17.212,-186.646
0.432,-0.076,-0.687,-14.832,-13.916,-185.669
0.488,-0.096,-0.660,-18.921,-9.521,-184.387
0.539,-0.140,-0.637,-18.494,-6.165,-184.509
0.564,-0.171,-0.637,-14.099,-6.042,-187.256
0.557,-0.197,-0.652,-8.545,-9.705,-192.566
0.522,-0.211,-0.661,-3.662,-16.418,-199.768
0.486,-0.259,-0.644,-0.671,-21.484,-207.153
0.448,-0.340,-0.622,1.343,-23.865,-212.585
0.408,-0.396,-0.620,2.563,-26.123,-213.562
0.413,-0.481,-0.618,2.869,-30.212,-208.557
0.426,-0.561,-0.625,2.991,-35.522,-201.721
0.431,-0.619,-0.646,2.686,-40.527,-194.336
0.417,-0.669,-0.645,0.854,-43.823,-188.354
0.408,-0.695,-0.640,-1.038,-43.152,-185.364
0.400,-0.723,-0.634,-2.930,-39.246,-184.570
0.371,-0.740,-0.618,-4.028,-36.377,-187.317
0.332,-0.748,-0.606,-3.906,-35.706,-193.298
0.276,-0.765,-0.582,-2.563,-36.438,-199.768
0.195,-0.758,-0.569,0.305,-36.194,-205.139
0.139,-0.791,-0.560,4.089,-34.119,-205.933
0.061,-0.851,-0.585,6.775,-30.762,-201.843
0.008,-0.914,-0.628,4.211,-28.320,-189.209
0.002,-0.966,-0.635,-4.883,-29.114,-168.579
0.015,-0.988,-0.606,-16.724,-30.457,-148.010
0.038,-0.991,-0.561,-27.344,-30.457,-132.019
0.043,-0.984,-0.513,-34.485,-28.809,-122.986
0.029,-0.969,-0.480,-37.903,-25.940,-118.713
0.040,-0.982,-0.452,-38.696,-21.667,-117.859
0.033,-0.977,-0.425,-38.513,-17.090,-119.873
0.033,-0.954,-0.403,-36.316,-13.306,-123.413
0.044,-0.953,-0.387,-30.334,-11.536,-129.272
0.014,-0.949,-0.368,-21.667,-13.245,-136.658
-0.025,-0.929,-0.367,-11.108,-18.005,-142.151
-0.051,-0.932,-0.370,0.305,-23.437,-142.883
-0.062,-0.941,-0.392,10.559,-27.710,-137.939
-0.028,-0.963,-0.413,16.907,-32.104,-129.822
-0.001,-0.970,-0.418,17.822,-36.926,-123.047
0.007,-0.972,-0.401,15.564,-41.748,-118.103
0.005,-0.954,-0.383,12.390,-46.387,-113.770
-0.001,-0.954,-0.354,9.644,-48.645,-109.009
-0.000,-0.949,-0.356,8.118,-48.767,-105.530
-0.014,-0.961,-0.360,6.958,-48.096,-105.835
-0.045,-0.965,-0.374,6.531,-46.143,-109.436
-0.089,-1.002,-0.401,7.568,-43.579,-112.183
-0.184,-1.042,-0.455,9.766,-41.077,-112.061
-0.281,-1.109,-0.522,10.803,-37.292,-102.722
-0.330,-1.182,-0.579,5.920,-33.386,-81.360
-0.341,-1.208,-0.594,-6.531,-29.968,-53.528
-0.329,-1.189,-0.567,-22.095,-27.893,-26.123
-0.282,-1.152,-0.505,-35.217,-27.283,-5.676
-0.251,-1.118,-0.455,-41.199,-29.114,5.859
-0.240,-1.090,-0.461,-39.673,-32.532,9.583
-0.237,-1.090,-0.508,-33.936,-33.936,6.653
-0.251,-1.101,-0.565,-28.748,-31.616,2.136
-0.254,-1.114,-0.612,-25.452,-26.611,1.099
-0.228,-1.118,-0.643,-24.597,-21.423,4.456
-0.174,-1.107,-0.649,-24.719,-17.944,9.583

-1.668,1.832,-0.495,3.967,108.887,304.260
-1.618,2.406,-0.709,7.812,154.663,331.238
-1.342,2.885,-1.193,11.719,214.722,356.201
-0.746,3.240,-1.949,6.470,287.048,370.789
0.162,3.669,-2.962,-14.587,367.432,370.422
1.862,4.000,-4.000,-73.975,452.209,368.530
3.839,3.603,-4.000,-192.749,545.593,358.826
4.000,1.386,-2.799,-279.785,574.341,231.262
3.021,0.804,-1.065,-330.872,354.980,-24.902
0.934,1.009,0.200,-290.955,-36.621,-179.382
-0.568,0.432,0.344,-107.727,-396.301,-194.275
-1.562,-0.308,-0.256,107.178,-577.148,-193.359
-2.104,-0.757,-1.111,231.140,-514.832,-159.851
-2.078,-0.962,-1.703,199.829,-292.786,-79.956
-1.496,-0.704,-1.701,53.284,-30.334,16.479
-0.698,-0.230,-1.384,-90.454,181.885,77.087
0.045,0.138,-1.114,-158.691,287.170,93.628
0.465,0.203,-1.030,-144.958,270.630,78.613
0.561,0.198,-1.118,-80.627,145.996,44.067
0.413,0.133,-1.259,-5.066,-21.729,5.005
0.139,0.023,-1.337,47.974,-152.832,-20.935
-0.111,-0.098,-1.311,64.575,-203.979,-32.043
-0.304,-0.209,-1.186,48.523,-180.542,-34.180
-0.375,-0.246,-1.022,16.418,-115.662,-29.297
-0.301,-0.214,-0.864,-16.235,-43.884,-17.395
-0.144,-0.140,-0.755,-36.499,6.409,-4.211
0.014,-0.039,-0.745,-37.048,27.039,5.798
0.130,0.013,-0.803,-23.193,25.208,11.902
0.191,0.040,-0.902,-7.568,11.414,12.695
0.204,0.036,-0.986,1.709,-2.686,8.362
0.178,-0.007,-1.016,4.028,-10.559,1.343
0.126,-0.050,-1.005,1.648,-12.878,-4.395
0.081,-0.081,-0.974,-1.770,-13.123,-7.507
0.058,-0.089,-0.949,-3.723,-13.062,-6.226
0.056,-0.082,-0.940,-4.333,-12.451,-3.052
0.076,-0.065,-0.936,-5.066,-9.399,1.404
0.100,-0.060,-0.927,-5.798,-5.188,4.883
0.113,-0.063,-0.919,-6.165,-1.404,5.615
0.112,-0.064,-0.922,-5.432,0.916,4.517
0.108,-0.069,-0.937,-3.540,0.793,3.479
0.116,-0.079,-0.959,-1.221,-0.793,3.235
0.126,-0.086,-0.977,-0.366,-3.052,2.686
0.134,-0.072,-0.991,-0.244,-5.432,2.563
0.152,-0.064,-1.001,-0.305,-6.775,3.601
0.179,-0.083,-0.999,-0.732,-6.775,3.967
0.190,-0.086,-0.986,-1.831,-6.714,2.869
0.184,-0.068,-0.970,-2.991,-6.775,2.014
0.187,-0.067,-0.954,-2.930,-5.981,1.465
0.183,-0.071,-0.943,-2.563,-4.944,0.549
0.172,-0.068,-0.934,-1.465,-4.395,-0.061
0.169,-0.058,-0.937,0.488,-4.333,0.488
0.193,-0.048,-0.963,2.380,-4.211,1.892
0.220,-0.035,-0.985,2.991,-3.174,2.625
0.244,-0.027,-0.999,2.319,-2.197,2.502
0.256,-0.011,-1.001,1.160,-2.747,1.892
0.260,0.009,-0.995,-0.061,-4.028,0.427
0.259,0.027,-0.996,-0.916,-4.944,-1.648
0.255,0.035,-1.015,-1.892,-4.395,-3.906
0.256,0.036,-1.038,-3.723,-2.625,-6.958
0.273,0.038,-1.070,-6.104,0.122,-10.437
0.298,0.057,-1.100,-8.728,2.747,-14.587
0.321,0.089,-1.122,-11.353,3.540,-20.813
0.331,0.116,-1.137,-12.939,1.770,-28.259
0.328,0.149,-1.146,-14.099,-2.502,-36.011
0.318,0.196,-1.145,-15.747,-8.484,-43.762
0.311,0.243,-1.139,-16.907,-15.442,-51.270
0.321,0.270,-1.125,-16.907,-23.437,-59.204
0.343,0.289,-1.130,-15.869,-32.410,-67.993
0.315,0.311,-1.159,-14.038,-42.969,-78.125
0.271,0.328,-1.224,-6.531,-54.138,-89.111
0.244,0.338,-1.292,2.625,-66.467,-98.206
0.214,0.372,-1.334,5.859,-78.125,-105.225
0.193,0.435,-1.335,4.028,-87.158,-111.145
0.196,0.513,-1.303,-1.404,-91.064,-116.272
0.195,0.622,-1.255,-9.583,-91.492,-122.437
0.192,0.748,-1.215,-18.616,-89.783,-131.165
0.163,0.874,-1.189,-28.564,-85.510,-142.334
0.119,0.990,-1.176,-37.781,-80.017,-155.762
0.081,1.070,-1.179,-47.241,-75.317,-168.579
0.052,1.112,-1.172,-57.129,-70.862,-179.993
0.025,1.135,-1.177,-65.063,-67.505,-190.796
0.021,1.098,-1.171,-70.190,-67.566,-201.294
0.003,1.028,-1.149,-73.059,-71.960,-212.524
-0.011,0.943,-1.119,-72.998,-80.627,-222.229
-0.027,0.876,-1.094,-71.411,-92.468,-229.309
-0.057,0.773,-1.040,-70.068,-104.187,-233.154
-0.075,0.695,-0.992,-69.946,-114.868,-235.291
-0.078,0.635,-0.958,-71.899,-122.375,-237.793
-0.057,0.520,-0.891,-76.355,-125.793,-240.906
-0.056,0.429,-0.820,-79.712,-126.465,-244.995
-0.044,0.304,-0.749,-78.857,-129.272,-249.634
-0.023,0.124,-0.696,-71.167,-134.277,-252.319
-0.026,-0.029,-0.654,-60.425,-143.494,-255.432
-0.045,-0.149,-0.631,-50.354,-153.992,-259.033
-0.069,-0.271,-0.608,-43.152,-160.889,-259.766
-0.100,-0.368,-0.587,-39.429,-163.208,-259.216
-0.141,-0.427,-0.576,-38.696,-161.438,-258.972
-0.176,-0.472,-0.559,-41.077,-156.128,-259.521
-0.206,-0.521,-0.538,-44.922,-149.536,-260.864
-0.223,-0.582,-0.517,-48.096,-143.616,-263.306
-0.248,-0.609,-0.506,-49.988,-139.526,-268.372
-0.265,-0.704,-0.464,-50.415,-137.756,-274.597
-0.292,-0.773,-0.450,-49.866,-138.794,-280.884
-0.306,-0.841,-0.428,-52.368,-142.822,-287.781
-0.351,-0.903,-0.399,-57.861,-150.269,-298.279
-0.398,-0.949,-0.407,-65.369,-162.292,-310.120
-0.461,-0.993,-0.423,-73.547,-179.810,-324.829
-0.561,-1.039,-0.444,-81.421,-203.735,-344.360
-0.707,-1.070,-0.491,-91.431,-235.046,-363.953
-0.944,-1.121,-0.527,-103.943,-269.470,-376.953
-1.247,-1.315,-0.541,-116.394,-301.453,-372.498
-1.623,-1.539,-0.643,-132.141,-317.444,-335.937
-1.991,-1.757,-0.809,-157.959,-305.481,-264.893
-2.224,-1.792,-0.950,-194.702,-260.315,-176.086
-2.318,-1.679,-0.947,-239.136,-194.275,-96.008
-2.292,-1.548,-0.752,-271.606,-139.465,-37.842
-2.182,-1.451,-0.479,-278.198,-115.784,8.789
-1.955,-1.399,-0.172,-260.071,-115.356,55.420
-1.537,-1.355,0.079,-226.257,-116.272,99.731

1.018,-1.314,-0.406,-6.226,77.148,20.874
0.901,-1.352,-0.500,13.672,77.820,-9.277
0.687,-1.374,-0.511,22.827,66.162,-31.067
0.475,-1.349,-0.477,23.315,47.668,-41.504
0.266,-1.306,-0.397,20.447,22.156,-43.823
0.050,-1.264,-0.289,18.005,-4.883,-43.701
-0.146,-1.219,-0.188,17.944,-26.917,-41.260
-0.299,-1.161,-0.120,18.677,-38.574,-35.339
-0.386,-1.096,-0.087,18.005,-37.109,-28.748
-0.418,-1.038,-0.067,15.137,-23.071,-24.780
-0.404,-0.986,-0.063,10.559,-2.441,-24.292
-0.358,-0.958,-0.072,5.859,18.738,-25.146
-0.308,-0.940,-0.088,1.526,34.180,-24.780
-0.247,-0.931,-0.101,-2.502,41.687,-21.667
-0.172,-0.917,-0.118,-5.676,41.626,-14.771
-0.094,-0.907,-0.127,-8.606,35.706,-7.385
-0.014,-0.908,-0.133,-11.292,27.588,-1.526
0.054,-0.905,-0.144,-13.428,20.508,4.578
0.110,-0.901,-0.159,-15.381,15.198,8.850
0.154,-0.903,-0.174,-16.663,11.963,11.353
0.181,-0.906,-0.181,-18.127,9.338,12.512
0.189,-0.915,-0.172,-19.531,6.531,12.207
0.179,-0.925,-0.151,-20.813,2.747,11.047
0.155,-0.938,-0.125,-22.522,-1.343,9.949
0.125,-0.949,-0.084,-23.804,-5.737,8.850
0.098,-0.959,-0.060,-23.987,-9.460,9.521
0.076,-0.955,-0.046,-22.705,-12.878,10.620
0.065,-0.955,-0.033,-20.203,-15.747,10.742
0.055,-0.963,-0.042,-15.564,-17.212,10.803
0.044,-0.975,-0.067,-11.169,-16.846,10.864
0.033,-0.984,-0.089,-7.690,-14.587,10.620
0.027,-1.003,-0.118,-4.883,-10.620,9.827
0.029,-1.021,-0.147,-2.563,-6.287,9.827
0.039,-1.038,-0.177,-0.854,-3.113,10.132
0.052,-1.056,-0.200,0.305,-1.953,10.498
0.077,-1.070,-0.221,0.977,-2.014,11.658
0.109,-1.067,-0.238,0.732,-2.808,13.123
0.141,-1.055,-0.236,0.061,-3.357,13.916
0.166,-1.045,-0.222,-0.305,-3.540,12.878
0.177,-1.038,-0.214,0.366,-3.601,11.108
0.178,-1.032,-0.208,0.549,-3.052,8.850
0.168,-1.030,-0.190,0.183,-2.075,6.470
0.156,-1.025,-0.172,-0.366,-1.526,4.272
0.146,-1.019,-0.160,-0.916,-0.977,2.502
0.131,-1.015,-0.147,-1.770,-0.488,0.549
0.111,-1.013,-0.127,-2.991,0.061,-0.793
0.096,-1.004,-0.111,-3.601,1.160,-1.221
0.102,-0.998,-0.100,-3.540,2.380,-0.854
0.115,-0.987,-0.101,-2.625,3.235,-0.183
0.119,-0.984,-0.103,-1.465,3.113,-0.366
0.119,-0.988,-0.108,-0.610,2.441,-0.916
0.120,-0.992,-0.120,-0.122,1.526,-0.122
0.124,-0.995,-0.133,-0.183,0.122,0.671
0.127,-1.000,-0.143,-0.854,-1.099,1.282
0.126,-1.000,-0.147,-1.831,-2.197,2.014
0.123,-0.999,-0.153,-2.380,-3.601,2.686
0.125,-1.000,-0.162,-2.258,-4.517,3.723
0.125,-1.001,-0.170,-1.892,-4.822,4.578
0.124,-1.007,-0.171,-1.648,-4.944,5.005
0.131,-1.017,-0.171,-0.854,-5.188,5.432
0.134,-1.020,-0.166,0.000,-5.920,6.104
0.138,-1.020,-0.167,0.793,-7.324,6.226
0.144,-1.016,-0.171,1.465,-9.155,6.287
0.145,-1.015,-0.165,1.160,-10.986,5.493
0.146,-1.016,-0.158,1.221,-11.780,5.005
0.146,-1.016,-0.156,1.709,-11.719,4.639
0.142,-1.019,-0.158,2.502,-11.230,3.723
0.141,-1.024,-0.164,3.479,-10.376,2.625
0.140,-1.031,-0.163,3.723,-9.094,1.160
0.140,-1.042,-0.161,4.272,-7.812,0.244
0.138,-1.049,-0.163,4.944,-6.653,-0.427
0.140,-1.052,-0.161,5.371,-6.348,-1.038
0.142,-1.053,-0.161,5.920,-6.104,-1.343
0.143,-1.051,-0.164,6.653,-6.531,-1.953
0.135,-1.050,-0.165,6.714,-7.507,-2.991
0.125,-1.045,-0.168,6.409,-8.606,-3.845
0.116,-1.043,-0.175,6.592,-9.094,-4.150
0.104,-1.045,-0.184,6.348,-9.766,-4.639
0.087,-1.045,-0.187,5.615,-10.132,-6.042
0.073,-1.045,-0.188,4.700,-9.827,-7.324
0.073,-1.041,-0.192,4.089,-9.033,-7.690
0.077,-1.041,-0.186,3.174,-8.545,-7.751
0.080,-1.035,-0.180,2.808,-8.667,-7.690
0.098,-1.031,-0.178,3.235,-9.399,-7.324
0.109,-1.022,-0.181,3.662,-10.376,-7.141
0.112,-1.018,-0.185,3.540,-10.742,-7.874
0.108,-1.014,-0.182,2.686,-10.742,-9.094
0.104,-1.008,-0.182,2.075,-11.047,-9.949
0.097,-1.006,-0.183,1.892,-11.414,-10.437
0.087,-1.004,-0.176,1.587,-11.780,-10.742
0.075,-1.002,-0.167,1.770,-13.000,-10.559
0.067,-1.005,-0.161,2.136,-14.099,-10.071
0.065,-1.005,-0.160,2.563,-14.893,-9.155
0.067,-1.001,-0.158,2.258,-14.954,-8.789
0.075,-1.000,-0.155,2.136,-14.709,-8.545
0.084,-0.999,-0.160,2.686,-14.404,-8.118
0.087,-1.000,-0.163,3.235,-14.526,-8.179
0.090,-1.000,-0.172,3.601,-14.404,-8.179
0.094,-0.993,-0.181,3.662,-14.526,-8.118
0.091,-0.993,-0.184,2.991,-14.832,-8.179
0.083,-0.995,-0.179,2.197,-15.503,-8.606
0.078,-0.996,-0.176,1.709,-16.418,-8.423
0.074,-0.993,-0.171,1.343,-17.273,-7.935
0.076,-0.987,-0.169,1.160,-18.005,-7.263
0.080,-0.985,-0.165,0.732,-18.616,-6.653
0.078,-0.984,-0.159,0.488,-19.043,-6.165
0.074,-0.985,-0.154,0.549,-19.470,-5.859
0.069,-0.985,-0.157,0.977,-19.287,-5.249
0.064,-0.981,-0.159,1.221,-18.616,-4.822
0.056,-0.983,-0.163,1.892,-18.311,-4.517
0.048,-0.983,-0.165,2.258,-18.311,-4.333
0.044,-0.986,-0.166,2.502,-18.127,-4.211
0.041,-0.986,-0.167,2.625,-17.883,-3.845
0.043,-0.990,-0.168,2.502,-17.090,-3.174
0.045,-0.986,-0.165,1.831,-16.541,-2.197
0.054,-0.984,-0.170,1.526,-16.052,-1.343
0.064,-0.989,-0.177,1.465,-15.686,-0.793
0.072,-0.997,-0.185,1.404,-15.381,-0.488
0.079,-1.003,-0.189,1.160,-15.015,-0.244
